File: EDS_1.emsa
#FORMAT      : EMSA/MAS Spectral Data File
#VERSION     : 1.0
#TITLE       : New Site...
#DATE        : 01-FEB-2021
#TIME        : 12:26
#OWNER       : Supervisor
#NPOINTS     : 2000
#NCOLUMNS    : 1
#XUNITS      : eV
#YUNITS      : counts
#DATATYPE    : Y
#XPERCHAN    : 10
#OFFSET      : 0.000000
#LIVETIME  -s: 180.085
#REALTIME  -s: 206.056
#SIGNALTYPE  : EDS
#EDSDET      : SI
#TAUWIND  -cm: 0.000002
#TDEADLYR -cm: 0.000001
#THCWIND     : 0.000030
#ELEVANGLE   : 30
#AZIMANGLE   : 161.5
#BEAMKV   -kV: 10
#EMISSION -uA: 120.278
#PROBECUR -nA: 0.000000
#XTILTSTGE   : 0.000157
#XPOSITION   : -15.54
#YPOSITION   : -3.539334
#ZPOSITION   : 56.7441
##INSTRUMENT : Apreo 2 S HiVac
##SWVERSION  : xT 23.1.0.7363
##USECASE    : OptiPlan
##BEAMSFTX-mm: -0.017228
##BEAMSFTY-mm: 0.003036
##PXHEIGHT-mm: 0.000827
##PXWIDTH -mm: 0.000827
##HFW     -mm: 1.270000
##VFW     -mm: 0.846667
##PRESSURE   : 0.000269
##FOCUSDST-mm: 9.922270
##GAIN       : 1.144948
##OFFSET     : 16.1205
##COUNTRATE  : 6234
##DWELLTM -us: 1.000000
##WORKDIST   : 10
##DEADTIME   : 4.181034
##TIMECNSTNT : 1600
##EDSBOARDREV: 2
##ZEROWIDTH  : 65
##CRYSTMATL  : SI-DRIFT
##WINTYPE    : NORVAR
##CONTAM  -cm: 0.000000
##TOA        : 30.1776
##DETSUBTYPE : 3
##SLIDEPOS-cm: 5.200000
##CRYSTAREA  : 60
##CRYSTTHICK : 0.450000
##CONTMATL   : SDD_LELMT
##WINDCOAT   : ALUM
##WINDTHICK  : 0.030000
##EXPONENT   : 0.000000
##LOWEVADJ   : 0.000000
##SIMAXIMAL  : false
#SPECTRUM    :
0.0,
0.0,
0.0,
0.0,
0.0,
0.0,
0.0,
0.0,
54.0,
153.0,
339.0,
934.0,
3703.0,
11440.0,
21295.0,
19311.0,
8676.0,
2136.0,
489.0,
433.0,
509.0,
598.0,
479.0,
522.0,
650.0,
902.0,
1305.0,
1686.0,
1569.0,
1270.0,
1166.0,
980.0,
937.0,
914.0,
1033.0,
1042.0,
1184.0,
1189.0,
1237.0,
1224.0,
1170.0,
1138.0,
1321.0,
1333.0,
1376.0,
1367.0,
1415.0,
1363.0,
1334.0,
1382.0,
1459.0,
1288.0,
1302.0,
1275.0,
1278.0,
1190.0,
1266.0,
1178.0,
1231.0,
1198.0,
1252.0,
1262.0,
1221.0,
1260.0,
1277.0,
1380.0,
1330.0,
1322.0,
1271.0,
1220.0,
1290.0,
1348.0,
1745.0,
2508.0,
3584.0,
4285.0,
4074.0,
3510.0,
2767.0,
2072.0,
1638.0,
1463.0,
1582.0,
2841.0,
8292.0,
23229.0,
48813.0,
73394.0,
78244.0,
59169.0,
32763.0,
14775.0,
7108.0,
4552.0,
3058.0,
1890.0,
1085.0,
788.0,
698.0,
621.0,
638.0,
651.0,
645.0,
627.0,
605.0,
603.0,
595.0,
577.0,
545.0,
564.0,
592.0,
557.0,
669.0,
670.0,
909.0,
1130.0,
1580.0,
1729.0,
1764.0,
1646.0,
1342.0,
1186.0,
1186.0,
1129.0,
1077.0,
877.0,
742.0,
572.0,
680.0,
858.0,
1164.0,
1516.0,
1620.0,
1344.0,
1171.0,
820.0,
601.0,
507.0,
491.0,
506.0,
547.0,
546.0,
508.0,
471.0,
458.0,
438.0,
466.0,
446.0,
399.0,
400.0,
427.0,
384.0,
387.0,
433.0,
356.0,
410.0,
407.0,
422.0,
401.0,
362.0,
366.0,
403.0,
369.0,
410.0,
403.0,
356.0,
322.0,
391.0,
377.0,
349.0,
363.0,
353.0,
402.0,
421.0,
469.0,
420.0,
419.0,
392.0,
391.0,
348.0,
343.0,
352.0,
309.0,
358.0,
310.0,
316.0,
340.0,
330.0,
319.0,
309.0,
298.0,
361.0,
307.0,
324.0,
289.0,
311.0,
281.0,
284.0,
274.0,
264.0,
311.0,
282.0,
287.0,
247.0,
270.0,
276.0,
289.0,
257.0,
292.0,
270.0,
328.0,
392.0,
494.0,
688.0,
773.0,
815.0,
796.0,
651.0,
528.0,
388.0,
311.0,
237.0,
242.0,
235.0,
216.0,
254.0,
245.0,
274.0,
323.0,
364.0,
413.0,
509.0,
495.0,
492.0,
439.0,
376.0,
303.0,
289.0,
287.0,
235.0,
237.0,
231.0,
213.0,
205.0,
228.0,
243.0,
262.0,
275.0,
245.0,
258.0,
244.0,
205.0,
191.0,
189.0,
179.0,
174.0,
171.0,
181.0,
171.0,
173.0,
156.0,
186.0,
185.0,
198.0,
192.0,
178.0,
168.0,
195.0,
175.0,
168.0,
138.0,
153.0,
154.0,
136.0,
150.0,
166.0,
157.0,
162.0,
161.0,
155.0,
150.0,
143.0,
136.0,
136.0,
138.0,
147.0,
144.0,
113.0,
141.0,
127.0,
140.0,
119.0,
154.0,
135.0,
110.0,
140.0,
122.0,
132.0,
118.0,
130.0,
133.0,
104.0,
140.0,
123.0,
109.0,
114.0,
112.0,
90.0,
112.0,
101.0,
108.0,
108.0,
123.0,
111.0,
112.0,
91.0,
103.0,
126.0,
112.0,
101.0,
114.0,
111.0,
86.0,
98.0,
102.0,
88.0,
93.0,
86.0,
103.0,
90.0,
98.0,
96.0,
90.0,
96.0,
106.0,
89.0,
100.0,
109.0,
98.0,
91.0,
90.0,
94.0,
97.0,
83.0,
82.0,
68.0,
69.0,
75.0,
79.0,
65.0,
77.0,
82.0,
69.0,
70.0,
82.0,
70.0,
82.0,
74.0,
69.0,
63.0,
73.0,
59.0,
55.0,
64.0,
69.0,
77.0,
86.0,
61.0,
62.0,
71.0,
74.0,
63.0,
93.0,
64.0,
72.0,
54.0,
73.0,
59.0,
64.0,
70.0,
64.0,
61.0,
61.0,
45.0,
49.0,
65.0,
62.0,
68.0,
57.0,
55.0,
49.0,
48.0,
47.0,
50.0,
53.0,
57.0,
45.0,
50.0,
59.0,
42.0,
42.0,
36.0,
43.0,
41.0,
38.0,
35.0,
54.0,
42.0,
47.0,
48.0,
50.0,
41.0,
37.0,
51.0,
36.0,
35.0,
36.0,
41.0,
37.0,
39.0,
45.0,
40.0,
35.0,
42.0,
27.0,
30.0,
26.0,
29.0,
30.0,
36.0,
22.0,
37.0,
28.0,
30.0,
24.0,
25.0,
31.0,
41.0,
24.0,
21.0,
24.0,
26.0,
19.0,
23.0,
21.0,
16.0,
25.0,
20.0,
27.0,
28.0,
23.0,
26.0,
17.0,
21.0,
12.0,
24.0,
20.0,
21.0,
19.0,
18.0,
15.0,
16.0,
22.0,
19.0,
12.0,
11.0,
17.0,
9.0,
16.0,
14.0,
15.0,
19.0,
13.0,
12.0,
9.0,
10.0,
12.0,
17.0,
15.0,
6.0,
10.0,
9.0,
10.0,
7.0,
8.0,
9.0,
5.0,
5.0,
3.0,
2.0,
2.0,
4.0,
4.0,
6.0,
3.0,
4.0,
0.0,
1.0,
1.0,
0.0,
1.0,
1.0,
0.0,
0.0,
1.0,
0.0,
1.0,
0.0,
0.0,
0.0,
1.0,
0.0,
1.0,
0.0,
1.0,
0.0,
0.0,
0.0,
0.0,
0.0,
0.0,
0.0,
0.0,
0.0,
0.0,
0.0,
0.0,
0.0,
1.0,
0.0,
0.0,
0.0,
0.0,
0.0,
0.0,
0.0,
0.0,
0.0,
0.0,
0.0,
0.0,
0.0,
0.0,
0.0,
0.0,
0.0,
0.0,
1.0,
0.0,
0.0,
0.0,
0.0,
0.0,
0.0,
0.0,
0.0,
0.0,
0.0,
0.0,
0.0,
0.0,
0.0,
0.0,
0.0,
0.0,
0.0,
0.0,
0.0,
0.0,
0.0,
0.0,
0.0,
0.0,
0.0,
1.0,
0.0,
0.0,
0.0,
0.0,
0.0,
0.0,
0.0,
0.0,
0.0,
0.0,
0.0,
0.0,
0.0,
0.0,
0.0,
0.0,
0.0,
1.0,
0.0,
0.0,
0.0,
0.0,
0.0,
0.0,
0.0,
0.0,
0.0,
0.0,
0.0,
0.0,
0.0,
0.0,
0.0,
0.0,
0.0,
0.0,
0.0,
0.0,
0.0,
0.0,
0.0,
0.0,
0.0,
0.0,
0.0,
0.0,
0.0,
0.0,
0.0,
0.0,
0.0,
0.0,
0.0,
0.0,
0.0,
0.0,
0.0,
0.0,
0.0,
0.0,
0.0,
0.0,
0.0,
0.0,
0.0,
0.0,
0.0,
0.0,
0.0,
0.0,
0.0,
0.0,
0.0,
0.0,
0.0,
0.0,
0.0,
0.0,
0.0,
0.0,
0.0,
0.0,
0.0,
0.0,
0.0,
0.0,
0.0,
0.0,
0.0,
0.0,
0.0,
0.0,
0.0,
0.0,
0.0,
0.0,
0.0,
0.0,
0.0,
0.0,
0.0,
0.0,
0.0,
0.0,
0.0,
0.0,
0.0,
0.0,
0.0,
0.0,
0.0,
0.0,
0.0,
0.0,
0.0,
0.0,
0.0,
0.0,
0.0,
0.0,
0.0,
0.0,
0.0,
0.0,
0.0,
0.0,
0.0,
0.0,
0.0,
0.0,
0.0,
0.0,
0.0,
0.0,
0.0,
0.0,
0.0,
0.0,
0.0,
0.0,
0.0,
0.0,
0.0,
0.0,
0.0,
0.0,
0.0,
0.0,
0.0,
0.0,
0.0,
0.0,
0.0,
0.0,
0.0,
0.0,
0.0,
0.0,
0.0,
0.0,
0.0,
0.0,
0.0,
0.0,
0.0,
0.0,
0.0,
0.0,
0.0,
0.0,
0.0,
0.0,
0.0,
0.0,
0.0,
0.0,
0.0,
0.0,
0.0,
0.0,
0.0,
0.0,
0.0,
0.0,
0.0,
0.0,
0.0,
0.0,
0.0,
0.0,
0.0,
0.0,
0.0,
0.0,
0.0,
0.0,
0.0,
0.0,
0.0,
0.0,
0.0,
0.0,
0.0,
0.0,
0.0,
0.0,
0.0,
0.0,
0.0,
0.0,
0.0,
0.0,
0.0,
0.0,
0.0,
0.0,
0.0,
0.0,
0.0,
0.0,
0.0,
0.0,
0.0,
0.0,
0.0,
0.0,
0.0,
0.0,
0.0,
0.0,
0.0,
0.0,
0.0,
0.0,
0.0,
0.0,
0.0,
0.0,
0.0,
0.0,
0.0,
0.0,
0.0,
0.0,
0.0,
0.0,
0.0,
0.0,
0.0,
0.0,
0.0,
0.0,
0.0,
0.0,
0.0,
0.0,
0.0,
0.0,
0.0,
0.0,
0.0,
0.0,
0.0,
0.0,
0.0,
0.0,
0.0,
0.0,
0.0,
0.0,
0.0,
0.0,
0.0,
0.0,
0.0,
0.0,
0.0,
0.0,
0.0,
0.0,
0.0,
0.0,
0.0,
0.0,
0.0,
0.0,
0.0,
0.0,
0.0,
0.0,
0.0,
0.0,
0.0,
0.0,
0.0,
0.0,
0.0,
0.0,
0.0,
0.0,
0.0,
0.0,
0.0,
0.0,
0.0,
0.0,
0.0,
0.0,
0.0,
0.0,
0.0,
0.0,
0.0,
0.0,
0.0,
0.0,
0.0,
0.0,
0.0,
0.0,
0.0,
0.0,
0.0,
0.0,
0.0,
0.0,
0.0,
0.0,
0.0,
0.0,
0.0,
0.0,
0.0,
0.0,
0.0,
0.0,
0.0,
0.0,
0.0,
0.0,
0.0,
0.0,
0.0,
0.0,
0.0,
0.0,
0.0,
0.0,
0.0,
0.0,
0.0,
0.0,
0.0,
0.0,
0.0,
0.0,
0.0,
0.0,
0.0,
0.0,
0.0,
0.0,
0.0,
0.0,
0.0,
0.0,
0.0,
0.0,
0.0,
0.0,
0.0,
0.0,
0.0,
0.0,
0.0,
0.0,
0.0,
0.0,
0.0,
0.0,
0.0,
0.0,
0.0,
0.0,
0.0,
0.0,
0.0,
0.0,
0.0,
0.0,
0.0,
0.0,
0.0,
0.0,
0.0,
0.0,
0.0,
0.0,
0.0,
0.0,
0.0,
0.0,
0.0,
0.0,
0.0,
0.0,
0.0,
0.0,
0.0,
0.0,
0.0,
0.0,
0.0,
0.0,
0.0,
0.0,
0.0,
0.0,
0.0,
0.0,
0.0,
0.0,
0.0,
0.0,
0.0,
0.0,
#ENDOFDATA   :